{
	"resourceType": "ResearchStudy",
	"id": "ResearchStudy2858",
	"meta": {
		"versionId": "2",
		"lastUpdated": "2021-07-28T19:08:33.805+00:00",
		"source": "#zj1czTsuUAVvoEBr"
	},
	"contained": [
		{
			"resourceType": "PlanDefinition",
			"id": "plan_definition-2857",
			"identifier": [
				{
					"use": "usual",
					"system": "https://www.examplestudymanagementdb.org",
					"value": "SUMC-1234567"
				}
			],
			"name": "PlanDef2857",
			"status": "draft"
		},
		{
			"resourceType": "Practitioner",
			"id": "practitioner-2857",
			"name": [
				{
					"use": "official",
					"text": "John Doe, IV, MD",
					"family": "Doe",
					"given": [
						"John"
					],
					"suffix": [
						"IV",
						"MD"
					]
				}
			]
		}
	],
	"identifier": [
		{
			"use": "usual",
			"type": {
				"text": "The Questionnaire Response ID for the associated Initiate a Study FHIR Questionnaire Response"
			},
			"system": "https://www.example-fhir-server.com/hapi-fhir-jpaserver/fhir/QuestionnaireResponse",
			"value": "QRID-2857"
		},
		{
			"use": "usual",
			"type": {
				"text": "IRB Study Protocol Number assigned by the sIRB's external research study database"
			},
			"value": "SUMC-1234567",
			"assigner": {
				"display": "Sample University Medical Center(SUMC)"
			}
		}
	],
	"title": "Double blind, placebo-controlled trial of a new class of arthritis medication",
	"protocol": [
		{
			"reference": "#plan_definition-2857"
		}
	],
	"status": "in-review",
	"category": [
		{
			"coding": [
				{
					"system": "http://ncimeta.nci.nih.gov",
					"code": "C98388",
					"display": "Interventional Study"
				}
			]
		}
	],
	"keyword": [
		{
			"coding": [
				{
					"system": "https://www.examplestudymanagementdb.org",
					"code": "NIH-2021-123456"
				}
			],
			"text": "NIH-2021-123456"
		}
	],
	"principalInvestigator": {
		"reference": "#practitioner-2857"
	}
}